videos,first_frame,sessions.thisRepN,sessions.thisTrialN,sessions.thisN,sessions.thisIndex,trials.thisRepN,trials.thisTrialN,trials.thisN,trials.thisIndex,thisRow.t,notes,start_exp.started,etRecord.started,etRecord.stopped,start_exp.stopped,focus.started,image.started,focus.stopped,trial.started,movie.started,trial.stopped,questions.started,key_resp.started,text.started,questions.stopped,key_resp.keys,key_resp.rt,key_resp.duration,end_exp.started,etRecord_2.started,etRecord_2.stopped,end_exp.stopped,participant,session,date,expName,psychopyVersion,frameRate,expStart,
video/Sphere_init3_speed1/delta2/0001-0150.avi,video/First_frame/Sphere_init3_speed1_delta2_0001-0150.jpg,0,0,0,0,0,0,0,7,15.173260000000028,,15.011527099999967,5.1900000016757986e-05,5.1900000016757986e-05,15.012639699999909,15.02019539999992,15.173260000000028,16.022518199999922,16.022527000000082,16.155197300000054,22.372332599999936,,,,,,,,,,,,200693,001,2024-01-30_15h16.17.547,PFE,2023.2.3,59.99026957827578,2024-01-30 15h16.23.220994 +0100,
video/Sphere_init1_speed1/original/0001-0150.avi,video/First_frame/Sphere_init1_speed1_original_0001-0150.jpg,0,0,0,0,0,1,1,2,22.521623799999816,,,,,,22.496518800000104,22.521623799999816,23.505481400000008,23.50548899999967,23.772112899999684,29.98873289999983,,,,,,,,,,,,200693,001,2024-01-30_15h16.17.547,PFE,2023.2.3,59.99026957827578,2024-01-30 15h16.23.220994 +0100,
video/Sphere_init3_speed1/original/0001-0150.avi,video/First_frame/Sphere_init3_speed1_original_0001-0150.jpg,0,0,0,0,0,2,2,8,30.138663899999756,,,,,,30.106630799999948,30.138663899999756,31.122034900000017,31.122041900000113,31.38878509999995,37.60540859999992,,,,,,,,,,,,200693,001,2024-01-30_15h16.17.547,PFE,2023.2.3,59.99026957827578,2024-01-30 15h16.23.220994 +0100,
video/Sphere_init2_speed1_perturbation/original/0001-0150.avi,video/First_frame/Sphere_init2_speed1_perturbation_original_0001-0150.jpg,0,0,0,0,0,3,3,17,37.755429899999854,,,,,,37.72360010000011,37.755429899999854,38.738799599999766,38.73880629999985,39.004916800000046,45.222115999999914,,,,,,,,,,,,200693,001,2024-01-30_15h16.17.547,PFE,2023.2.3,59.99026957827578,2024-01-30 15h16.23.220994 +0100,
video/Sphere_init2_speed1_perturbation/delta2/0001-0150.avi,video/First_frame/Sphere_init2_speed1_perturbation_delta2_0001-0150.jpg,0,0,0,0,0,4,4,16,45.37158199999976,,,,,,45.348652499999844,45.37158199999976,46.35542889999988,46.355436499999996,46.63816689999976,52.855394799999885,,,,,,,,,,,,200693,001,2024-01-30_15h16.17.547,PFE,2023.2.3,59.99026957827578,2024-01-30 15h16.23.220994 +0100,
video/Sphere_init4_speed1/delta1/0001-0150.avi,video/First_frame/Sphere_init4_speed1_delta1_0001-0150.jpg,0,0,0,0,0,5,5,9,53.00542610000002,,,,,,52.974629999999706,53.00542610000002,53.98945259999982,53.98946010000009,54.25529469999992,60.47206819999974,,,,,,,,,,,,200693,001,2024-01-30_15h16.17.547,PFE,2023.2.3,59.99026957827578,2024-01-30 15h16.23.220994 +0100,
video/Sphere_init3_speed1_perturbation/delta1/0001-0150.avi,video/First_frame/Sphere_init3_speed1_perturbation_delta1_0001-0150.jpg,0,0,0,0,0,6,6,18,60.62147449999975,,,,,,60.58864420000009,60.62147449999975,61.588800999999876,61.588808699999845,61.87208379999993,68.08876389999978,,,,,,,,,,,,200693,001,2024-01-30_15h16.17.547,PFE,2023.2.3,59.99026957827578,2024-01-30 15h16.23.220994 +0100,
video/Sphere_init2_speed1/delta2/0001-0150.avi,video/First_frame/Sphere_init2_speed1_delta2_0001-0150.jpg,0,0,0,0,0,7,7,4,68.23814659999971,,,,,,68.20766229999981,68.23814659999971,69.22207619999972,69.22208279999995,69.48874019999994,75.70573579999973,,,,,,,,,,,,200693,001,2024-01-30_15h16.17.547,PFE,2023.2.3,59.99026957827578,2024-01-30 15h16.23.220994 +0100,
video/Sphere_init2_speed1/original/0001-0150.avi,video/First_frame/Sphere_init2_speed1_original_0001-0150.jpg,0,0,0,0,0,8,8,5,75.85475919999999,,,,,,75.82673859999977,75.85475919999999,76.8387287999999,76.8387361,77.10538999999972,83.3219909999998,,,,,,,,,,,,200693,001,2024-01-30_15h16.17.547,PFE,2023.2.3,59.99026957827578,2024-01-30 15h16.23.220994 +0100,
video/Sphere_init1_speed1/delta1/0001-0150.avi,video/First_frame/Sphere_init1_speed1_delta1_0001-0150.jpg,0,0,0,0,0,9,9,0,83.47199150000006,,,,,,83.44472790000009,83.47199150000006,84.45540690000007,84.45541389999971,84.72280610000007,90.93872650000003,,,,,,,,,,,,200693,001,2024-01-30_15h16.17.547,PFE,2023.2.3,59.99026957827578,2024-01-30 15h16.23.220994 +0100,
video/Sphere_init2_speed1_perturbation/delta1/0001-0150.avi,video/First_frame/Sphere_init2_speed1_perturbation_delta1_0001-0150.jpg,0,0,0,0,0,10,10,15,91.08866549999993,,,,,,91.05875179999975,91.08866549999993,92.07209599999987,92.07210290000012,92.33857659999967,98.5552115999999,,,,,,,,,,,,200693,001,2024-01-30_15h16.17.547,PFE,2023.2.3,59.99026957827578,2024-01-30 15h16.23.220994 +0100,
video/Sphere_init1_speed1_perturbation/original/0001-0150.avi,video/First_frame/Sphere_init1_speed1_perturbation_original_0001-0150.jpg,0,0,0,0,0,11,11,14,98.7220414999997,,,,,,98.68093240000007,98.7220414999997,99.68875900000012,99.68876670000009,99.97184289999996,106.18860479999967,,,,,,,,,,,,200693,001,2024-01-30_15h16.17.547,PFE,2023.2.3,59.99026957827578,2024-01-30 15h16.23.220994 +0100,
video/Sphere_init4_speed1_perturbation/delta1/0001-0150.avi,video/First_frame/Sphere_init4_speed1_perturbation_delta1_0001-0150.jpg,0,0,0,0,0,12,12,21,106.33869539999978,,,,,,106.30592789999992,106.33869539999978,107.32203849999996,107.32204640000009,107.58858519999967,113.80504679999967,,,,,,,,,,,,200693,001,2024-01-30_15h16.17.547,PFE,2023.2.3,59.99026957827578,2024-01-30 15h16.23.220994 +0100,
video/Sphere_init4_speed1/original/0001-0150.avi,video/First_frame/Sphere_init4_speed1_original_0001-0150.jpg,0,0,0,0,0,13,13,11,113.95532409999987,,,,,,113.92495999999983,113.95532409999987,114.9387598999997,114.93876749999981,115.2052764,121.42198469999994,,,,,,,,,,,,200693,001,2024-01-30_15h16.17.547,PFE,2023.2.3,59.99026957827578,2024-01-30 15h16.23.220994 +0100,
video/Sphere_init1_speed1/delta2/0001-0150.avi,video/First_frame/Sphere_init1_speed1_delta2_0001-0150.jpg,0,0,0,0,0,14,14,1,121.57200449999982,,,,,,121.54287350000004,121.57200449999982,122.55539980000003,122.55540650000012,122.82203789999994,129.03863869999986,,,,,,,,,,,,200693,001,2024-01-30_15h16.17.547,PFE,2023.2.3,59.99026957827578,2024-01-30 15h16.23.220994 +0100,
video/Sphere_init4_speed1_perturbation/original/0001-0150.avi,video/First_frame/Sphere_init4_speed1_perturbation_original_0001-0150.jpg,0,0,0,0,0,15,15,23,129.20505150000008,,,,,,129.16593650000004,129.20505150000008,130.1719737999997,130.17198099999996,130.43861419999985,136.65554969999994,,,,,,,,,,,,200693,001,2024-01-30_15h16.17.547,PFE,2023.2.3,59.99026957827578,2024-01-30 15h16.23.220994 +0100,
video/Sphere_init3_speed1_perturbation/original/0001-0150.avi,video/First_frame/Sphere_init3_speed1_perturbation_original_0001-0150.jpg,0,0,0,0,0,16,16,20,136.82201159999977,,,,,,136.78198169999996,136.82201159999977,137.78872809999984,137.78873589999966,138.0553716999998,144.2882765999998,,,,,,,,,,,,200693,001,2024-01-30_15h16.17.547,PFE,2023.2.3,59.99026957827578,2024-01-30 15h16.23.220994 +0100,
video/Sphere_init3_speed1/delta1/0001-0150.avi,video/First_frame/Sphere_init3_speed1_delta1_0001-0150.jpg,0,0,0,0,0,17,17,6,144.4386387999998,,,,,,144.4009633999999,144.4386387999998,145.40535920000002,145.4053660999998,145.6886558000001,151.90567729999975,,,,,,,,,,,,200693,001,2024-01-30_15h16.17.547,PFE,2023.2.3,59.99026957827578,2024-01-30 15h16.23.220994 +0100,
video/Sphere_init3_speed1_perturbation/delta2/0001-0150.avi,video/First_frame/Sphere_init3_speed1_perturbation_delta2_0001-0150.jpg,0,0,0,0,0,18,18,19,152.0553073000001,,,,,,152.0238761999999,152.0553073000001,153.03871119999985,153.0387185999998,153.30530980000003,159.52168630000006,,,,,,,,,,,,200693,001,2024-01-30_15h16.17.547,PFE,2023.2.3,59.99026957827578,2024-01-30 15h16.23.220994 +0100,
video/Sphere_init2_speed1/delta1/0001-0150.avi,video/First_frame/Sphere_init2_speed1_delta1_0001-0150.jpg,0,0,0,0,0,19,19,3,159.6719210000001,,,,,,159.64194659999976,159.6719210000001,160.65534489999982,160.65535150000005,160.92193769999994,167.13890219999985,,,,,,,,,,,,200693,001,2024-01-30_15h16.17.547,PFE,2023.2.3,59.99026957827578,2024-01-30 15h16.23.220994 +0100,
video/Sphere_init1_speed1_perturbation/delta1/0001-0150.avi,video/First_frame/Sphere_init1_speed1_perturbation_delta1_0001-0150.jpg,0,0,0,0,0,20,20,12,167.28852419999976,,,,,,167.26291869999977,167.28852419999976,168.2720362,168.2720436999998,168.53860769999983,174.7552442000001,,,,,,,,,,,,200693,001,2024-01-30_15h16.17.547,PFE,2023.2.3,59.99026957827578,2024-01-30 15h16.23.220994 +0100,
video/Sphere_init4_speed1_perturbation/delta2/0001-0150.avi,video/First_frame/Sphere_init4_speed1_perturbation_delta2_0001-0150.jpg,0,0,0,0,0,21,21,22,174.90527350000002,,,,,,174.88099699999975,174.90527350000002,175.88869290000002,175.8887009,176.15510289999975,182.38872279999987,,,,,,,,,,,,200693,001,2024-01-30_15h16.17.547,PFE,2023.2.3,59.99026957827578,2024-01-30 15h16.23.220994 +0100,
video/Sphere_init1_speed1_perturbation/delta2/0001-0150.avi,video/First_frame/Sphere_init1_speed1_perturbation_delta2_0001-0150.jpg,0,0,0,0,0,22,22,13,182.53857359999984,,,,,,182.50087809999968,182.53857359999984,183.5053294999998,183.50533649999988,183.7886423,190.0052870999998,,,,,,,,,,,,200693,001,2024-01-30_15h16.17.547,PFE,2023.2.3,59.99026957827578,2024-01-30 15h16.23.220994 +0100,
video/Sphere_init4_speed1/delta2/0001-0150.avi,video/First_frame/Sphere_init4_speed1_delta2_0001-0150.jpg,0,0,0,0,0,23,23,10,190.15525099999968,,,,,,190.11962619999986,190.15525099999968,191.12198929999977,191.12199569999984,191.4051832,197.6218530000001,,,,,,,,,,,,200693,001,2024-01-30_15h16.17.547,PFE,2023.2.3,59.99026957827578,2024-01-30 15h16.23.220994 +0100,
,,0,0,0,0,,,,,,,,,,,,,,,,,197.73697619999984,197.8047561999997,197.8047561999997,222.63914049999994,space,24.833070199999838,None,,,,,200693,001,2024-01-30_15h16.17.547,PFE,2023.2.3,59.99026957827578,2024-01-30 15h16.23.220994 +0100,
video/Sphere_init3_speed1_perturbation/delta1/0001-0150.avi,video/First_frame/Sphere_init3_speed1_perturbation_delta1_0001-0150.jpg,1,0,1,0,0,0,0,18,222.67184719999977,,,,,,222.6417475999997,222.67184719999977,223.6549783999999,223.6549858999997,223.90520620000007,230.1218058999998,,,,,,,,,,,,200693,001,2024-01-30_15h16.17.547,PFE,2023.2.3,59.99026957827578,2024-01-30 15h16.23.220994 +0100,
video/Sphere_init3_speed1/delta2/0001-0150.avi,video/First_frame/Sphere_init3_speed1_delta2_0001-0150.jpg,1,0,1,0,0,1,1,7,230.27159549999988,,,,,,230.2452000999997,230.27159549999988,231.25527699999975,231.25528480000003,231.5219032,237.7385823999998,,,,,,,,,,,,200693,001,2024-01-30_15h16.17.547,PFE,2023.2.3,59.99026957827578,2024-01-30 15h16.23.220994 +0100,
video/Sphere_init4_speed1_perturbation/delta2/0001-0150.avi,video/First_frame/Sphere_init4_speed1_perturbation_delta2_0001-0150.jpg,1,0,1,0,0,2,2,22,237.88857150000013,,,,,,237.85810449999963,237.88857150000013,238.87193849999994,238.8719457000002,239.13827439999977,245.35525389999975,,,,,,,,,,,,200693,001,2024-01-30_15h16.17.547,PFE,2023.2.3,59.99026957827578,2024-01-30 15h16.23.220994 +0100,
video/Sphere_init3_speed1_perturbation/original/0001-0150.avi,video/First_frame/Sphere_init3_speed1_perturbation_original_0001-0150.jpg,1,0,1,0,0,3,3,20,245.50516109999944,,,,,,245.47113390000004,245.50516109999944,246.47194609999997,246.47195379999948,246.73845089999986,252.9714100999995,,,,,,,,,,,,200693,001,2024-01-30_15h16.17.547,PFE,2023.2.3,59.99026957827578,2024-01-30 15h16.23.220994 +0100,
video/Sphere_init2_speed1/delta2/0001-0150.avi,video/First_frame/Sphere_init2_speed1_delta2_0001-0150.jpg,1,0,1,0,0,4,4,4,253.12189389999958,,,,,,253.08508539999957,253.12189389999958,254.0885948,254.08860219999997,254.355188,260.5721110999998,,,,,,,,,,,,200693,001,2024-01-30_15h16.17.547,PFE,2023.2.3,59.99026957827578,2024-01-30 15h16.23.220994 +0100,
video/Sphere_init2_speed1_perturbation/original/0001-0150.avi,video/First_frame/Sphere_init2_speed1_perturbation_original_0001-0150.jpg,1,0,1,0,0,5,5,17,260.72177039999997,,,,,,260.69713809999985,260.72177039999997,261.70533789999945,261.7053457999996,261.9718736,268.1885007999995,,,,,,,,,,,,200693,001,2024-01-30_15h16.17.547,PFE,2023.2.3,59.99026957827578,2024-01-30 15h16.23.220994 +0100,
video/Sphere_init2_speed1_perturbation/delta1/0001-0150.avi,video/First_frame/Sphere_init2_speed1_perturbation_delta1_0001-0150.jpg,1,0,1,0,0,6,6,15,268.33802700000024,,,,,,268.31108989999984,268.33802700000024,269.32185470000013,269.32186219999994,269.5885725000003,275.80499009999994,,,,,,,,,,,,200693,001,2024-01-30_15h16.17.547,PFE,2023.2.3,59.99026957827578,2024-01-30 15h16.23.220994 +0100,
video/Sphere_init1_speed1_perturbation/original/0001-0150.avi,video/First_frame/Sphere_init1_speed1_perturbation_original_0001-0150.jpg,1,0,1,0,0,7,7,14,275.95512819999976,,,,,,275.92411049999964,275.95512819999976,276.9383783999997,276.9383856999998,277.20520609999994,283.42210120000027,,,,,,,,,,,,200693,001,2024-01-30_15h16.17.547,PFE,2023.2.3,59.99026957827578,2024-01-30 15h16.23.220994 +0100,
video/Sphere_init1_speed1/delta1/0001-0150.avi,video/First_frame/Sphere_init1_speed1_delta1_0001-0150.jpg,1,0,1,0,0,8,8,0,283.57184689999985,,,,,,283.53770269999995,283.57184689999985,284.5385646999998,284.5385722999995,284.80506169999944,291.0382367999996,,,,,,,,,,,,200693,001,2024-01-30_15h16.17.547,PFE,2023.2.3,59.99026957827578,2024-01-30 15h16.23.220994 +0100,
video/Sphere_init1_speed1/delta2/0001-0150.avi,video/First_frame/Sphere_init1_speed1_delta2_0001-0150.jpg,1,0,1,0,0,9,9,1,291.1718060999997,,,,,,291.1501524,291.1718060999997,292.15525839999964,292.15526550000004,292.42184659999975,298.6382927999998,,,,,,,,,,,,200693,001,2024-01-30_15h16.17.547,PFE,2023.2.3,59.99026957827578,2024-01-30 15h16.23.220994 +0100,
video/Sphere_init4_speed1/original/0001-0150.avi,video/First_frame/Sphere_init4_speed1_original_0001-0150.jpg,1,0,1,0,0,10,10,11,298.7884772000002,,,,,,298.7642914000003,298.7884772000002,299.77198739999994,299.7719968999995,300.0385191999999,306.2551546999998,,,,,,,,,,,,200693,001,2024-01-30_15h16.17.547,PFE,2023.2.3,59.99026957827578,2024-01-30 15h16.23.220994 +0100,
video/Sphere_init1_speed1_perturbation/delta2/0001-0150.avi,video/First_frame/Sphere_init1_speed1_perturbation_delta2_0001-0150.jpg,1,0,1,0,0,11,11,13,306.4051494,,,,,,306.3783563000002,306.4051494,307.38805550000006,307.38806330000034,307.6551865999995,313.87212469999986,,,,,,,,,,,,200693,001,2024-01-30_15h16.17.547,PFE,2023.2.3,59.99026957827578,2024-01-30 15h16.23.220994 +0100,
video/Sphere_init3_speed1/delta1/0001-0150.avi,video/First_frame/Sphere_init3_speed1_delta1_0001-0150.jpg,1,0,1,0,0,12,12,6,314.02181509999946,,,,,,313.9932966000001,314.02181509999946,315.0051564999999,315.0051639999997,315.2718262000003,321.4885983999998,,,,,,,,,,,,200693,001,2024-01-30_15h16.17.547,PFE,2023.2.3,59.99026957827578,2024-01-30 15h16.23.220994 +0100,
video/Sphere_init3_speed1/original/0001-0150.avi,video/First_frame/Sphere_init3_speed1_original_0001-0150.jpg,1,0,1,0,0,13,13,8,321.6381169000001,,,,,,321.61083349999944,321.6381169000001,322.6218887,322.6218965000003,322.8884758999998,329.10511369999995,,,,,,,,,,,,200693,001,2024-01-30_15h16.17.547,PFE,2023.2.3,59.99026957827578,2024-01-30 15h16.23.220994 +0100,
video/Sphere_init1_speed1/original/0001-0150.avi,video/First_frame/Sphere_init1_speed1_original_0001-0150.jpg,1,0,1,0,0,14,14,2,329.2552201000003,,,,,,329.2258274999999,329.2552201000003,330.2385526000003,330.2385602999998,330.5049323999997,336.72178759999997,,,,,,,,,,,,200693,001,2024-01-30_15h16.17.547,PFE,2023.2.3,59.99026957827578,2024-01-30 15h16.23.220994 +0100,
video/Sphere_init4_speed1_perturbation/original/0001-0150.avi,video/First_frame/Sphere_init4_speed1_perturbation_original_0001-0150.jpg,1,0,1,0,0,15,15,23,336.87128410000014,,,,,,336.8388309999996,336.87128410000014,337.85520849999966,337.85521629999994,338.1218174999999,344.3387378000002,,,,,,,,,,,,200693,001,2024-01-30_15h16.17.547,PFE,2023.2.3,59.99026957827578,2024-01-30 15h16.23.220994 +0100,
video/Sphere_init1_speed1_perturbation/delta1/0001-0150.avi,video/First_frame/Sphere_init1_speed1_perturbation_delta1_0001-0150.jpg,1,0,1,0,0,16,16,12,344.4884655000001,,,,,,344.45377150000013,344.4884655000001,345.45518260000017,345.4551907,345.7218373999999,351.93823159999965,,,,,,,,,,,,200693,001,2024-01-30_15h16.17.547,PFE,2023.2.3,59.99026957827578,2024-01-30 15h16.23.220994 +0100,
video/Sphere_init4_speed1/delta1/0001-0150.avi,video/First_frame/Sphere_init4_speed1_delta1_0001-0150.jpg,1,0,1,0,0,17,17,9,352.08846049999966,,,,,,352.06579269999975,352.08846049999966,353.0718515000003,353.0718603999999,353.33838049999986,359.5551498,,,,,,,,,,,,200693,001,2024-01-30_15h16.17.547,PFE,2023.2.3,59.99026957827578,2024-01-30 15h16.23.220994 +0100,
video/Sphere_init2_speed1/delta1/0001-0150.avi,video/First_frame/Sphere_init2_speed1_delta1_0001-0150.jpg,1,0,1,0,0,18,18,3,359.70510739999963,,,,,,359.6798494999998,359.70510739999963,360.6884335999998,360.68844190000027,360.9551274999999,367.17176569999947,,,,,,,,,,,,200693,001,2024-01-30_15h16.17.547,PFE,2023.2.3,59.99026957827578,2024-01-30 15h16.23.220994 +0100,
video/Sphere_init2_speed1/original/0001-0150.avi,video/First_frame/Sphere_init2_speed1_original_0001-0150.jpg,1,0,1,0,0,19,19,5,367.3217725999998,,,,,,367.2910866999996,367.3217725999998,368.3052015999997,368.3052101999997,368.57174910000003,374.78817990000016,,,,,,,,,,,,200693,001,2024-01-30_15h16.17.547,PFE,2023.2.3,59.99026957827578,2024-01-30 15h16.23.220994 +0100,
video/Sphere_init4_speed1/delta2/0001-0150.avi,video/First_frame/Sphere_init4_speed1_delta2_0001-0150.jpg,1,0,1,0,0,20,20,10,374.93839329999946,,,,,,374.90936660000034,374.93839329999946,375.92184789999965,375.9218552999996,376.1884298,382.4048434000001,,,,,,,,,,,,200693,001,2024-01-30_15h16.17.547,PFE,2023.2.3,59.99026957827578,2024-01-30 15h16.23.220994 +0100,
video/Sphere_init3_speed1_perturbation/delta2/0001-0150.avi,video/First_frame/Sphere_init3_speed1_perturbation_delta2_0001-0150.jpg,1,0,1,0,0,21,21,19,382.5550916999996,,,,,,382.5243599999999,382.5550916999996,383.53849539999965,383.53850379999994,383.80507590000025,390.021518,,,,,,,,,,,,200693,001,2024-01-30_15h16.17.547,PFE,2023.2.3,59.99026957827578,2024-01-30 15h16.23.220994 +0100,
video/Sphere_init4_speed1_perturbation/delta1/0001-0150.avi,video/First_frame/Sphere_init4_speed1_perturbation_delta1_0001-0150.jpg,1,0,1,0,0,22,22,21,390.17176340000015,,,,,,390.13554650000015,390.17176340000015,391.1384802999996,391.13848819999976,391.4049614999999,397.63814929999944,,,,,,,,,,,,200693,001,2024-01-30_15h16.17.547,PFE,2023.2.3,59.99026957827578,2024-01-30 15h16.23.220994 +0100,
video/Sphere_init2_speed1_perturbation/delta2/0001-0150.avi,video/First_frame/Sphere_init2_speed1_perturbation_delta2_0001-0150.jpg,1,0,1,0,0,23,23,16,397.7711267999998,,,,,,397.7495077999997,397.7711267999998,398.7551367000001,398.75514780000003,399.0216752000001,405.2546612000001,,,,,,,,,,,,200693,001,2024-01-30_15h16.17.547,PFE,2023.2.3,59.99026957827578,2024-01-30 15h16.23.220994 +0100,
,,1,0,1,0,,,,,,,,,,,,,,,,,405.36632359999976,405.37174149999964,405.37174149999964,418.2056596999996,space,12.81948630000079,None,,,,,200693,001,2024-01-30_15h16.17.547,PFE,2023.2.3,59.99026957827578,2024-01-30 15h16.23.220994 +0100,
video/Sphere_init4_speed1_perturbation/delta2/0001-0150.avi,video/First_frame/Sphere_init4_speed1_perturbation_delta2_0001-0150.jpg,2,0,2,0,0,0,0,22,418.23853420000023,,,,,,418.20818439999994,418.23853420000023,419.2217945999996,419.22180230000004,419.50511080000024,425.72170099999994,,,,,,,,,,,,200693,001,2024-01-30_15h16.17.547,PFE,2023.2.3,59.99026957827578,2024-01-30 15h16.23.220994 +0100,
video/Sphere_init3_speed1/original/0001-0150.avi,video/First_frame/Sphere_init3_speed1_original_0001-0150.jpg,2,0,2,0,0,1,1,8,425.87142670000003,,,,,,425.8365577999998,425.87142670000003,426.8384486,426.8384559000001,427.10501019999947,433.33837790000007,,,,,,,,,,,,200693,001,2024-01-30_15h16.17.547,PFE,2023.2.3,59.99026957827578,2024-01-30 15h16.23.220994 +0100,
video/Sphere_init4_speed1_perturbation/delta1/0001-0150.avi,video/First_frame/Sphere_init4_speed1_perturbation_delta1_0001-0150.jpg,2,0,2,0,0,2,2,21,433.4715332999999,,,,,,433.44962329999953,433.4715332999999,434.4548711000002,434.45487920000005,434.72155729999986,440.93847309999956,,,,,,,,,,,,200693,001,2024-01-30_15h16.17.547,PFE,2023.2.3,59.99026957827578,2024-01-30 15h16.23.220994 +0100,
video/Sphere_init1_speed1/delta1/0001-0150.avi,video/First_frame/Sphere_init1_speed1_delta1_0001-0150.jpg,2,0,2,0,0,3,3,0,441.08836980000024,,,,,,441.0625820999999,441.08836980000024,442.07177159999947,442.07177850000016,442.33841079999956,448.55502229999956,,,,,,,,,,,,200693,001,2024-01-30_15h16.17.547,PFE,2023.2.3,59.99026957827578,2024-01-30 15h16.23.220994 +0100,
video/Sphere_init1_speed1/delta2/0001-0150.avi,video/First_frame/Sphere_init1_speed1_delta2_0001-0150.jpg,2,0,2,0,0,4,4,1,448.7050280999997,,,,,,448.6766327999999,448.7050280999997,449.68841939999993,449.6884262999997,449.9550542000002,456.1719572999996,,,,,,,,,,,,200693,001,2024-01-30_15h16.17.547,PFE,2023.2.3,59.99026957827578,2024-01-30 15h16.23.220994 +0100,
video/Sphere_init1_speed1_perturbation/delta2/0001-0150.avi,video/First_frame/Sphere_init1_speed1_perturbation_delta2_0001-0150.jpg,2,0,2,0,0,5,5,13,456.3216152,,,,,,456.29001409999955,456.3216152,457.3049986000001,457.30500639999946,457.5710478999995,463.78830309999967,,,,,,,,,,,,200693,001,2024-01-30_15h16.17.547,PFE,2023.2.3,59.99026957827578,2024-01-30 15h16.23.220994 +0100,
video/Sphere_init1_speed1_perturbation/delta1/0001-0150.avi,video/First_frame/Sphere_init1_speed1_perturbation_delta1_0001-0150.jpg,2,0,2,0,0,6,6,12,463.93835830000035,,,,,,463.9080068999997,463.93835830000035,464.92143519999945,464.9214434999999,465.18787629999997,471.404951,,,,,,,,,,,,200693,001,2024-01-30_15h16.17.547,PFE,2023.2.3,59.99026957827578,2024-01-30 15h16.23.220994 +0100,
video/Sphere_init1_speed1/original/0001-0150.avi,video/First_frame/Sphere_init1_speed1_original_0001-0150.jpg,2,0,2,0,0,7,7,2,471.5550175000003,,,,,,471.51997809999966,471.5550175000003,472.5217484,472.5217558999998,472.7883506000003,479.005052,,,,,,,,,,,,200693,001,2024-01-30_15h16.17.547,PFE,2023.2.3,59.99026957827578,2024-01-30 15h16.23.220994 +0100,
video/Sphere_init4_speed1/delta1/0001-0150.avi,video/First_frame/Sphere_init4_speed1_delta1_0001-0150.jpg,2,0,2,0,0,8,8,9,479.1550236999997,,,,,,479.13110089999964,479.1550236999997,480.13841209999964,480.13841999999977,480.40504439999995,486.6217541000001,,,,,,,,,,,,200693,001,2024-01-30_15h16.17.547,PFE,2023.2.3,59.99026957827578,2024-01-30 15h16.23.220994 +0100,
video/Sphere_init2_speed1_perturbation/delta2/0001-0150.avi,video/First_frame/Sphere_init2_speed1_perturbation_delta2_0001-0150.jpg,2,0,2,0,0,9,9,16,486.7710302999999,,,,,,486.7431650000003,486.7710302999999,487.7551677999995,487.7551808000003,488.0217018999997,494.23825389999956,,,,,,,,,,,,200693,001,2024-01-30_15h16.17.547,PFE,2023.2.3,59.99026957827578,2024-01-30 15h16.23.220994 +0100,
video/Sphere_init3_speed1_perturbation/delta1/0001-0150.avi,video/First_frame/Sphere_init3_speed1_perturbation_delta1_0001-0150.jpg,2,0,2,0,0,10,10,18,494.38772579999977,,,,,,494.35819219999985,494.38772579999977,495.37229439999965,495.37230260000024,495.63834429999997,501.85499800000025,,,,,,,,,,,,200693,001,2024-01-30_15h16.17.547,PFE,2023.2.3,59.99026957827578,2024-01-30 15h16.23.220994 +0100,
video/Sphere_init3_speed1/delta2/0001-0150.avi,video/First_frame/Sphere_init3_speed1_delta2_0001-0150.jpg,2,0,2,0,0,11,11,7,502.00499309999987,,,,,,501.97321150000016,502.00499309999987,502.9884019999995,502.9884103999998,503.25500630000033,509.4716975999995,,,,,,,,,,,,200693,001,2024-01-30_15h16.17.547,PFE,2023.2.3,59.99026957827578,2024-01-30 15h16.23.220994 +0100,
video/Sphere_init3_speed1_perturbation/delta2/0001-0150.avi,video/First_frame/Sphere_init3_speed1_perturbation_delta2_0001-0150.jpg,2,0,2,0,0,12,12,19,509.62166690000004,,,,,,509.5862634,509.62166690000004,510.5884066000003,510.58841410000014,510.8716892999996,517.0879402999994,,,,,,,,,,,,200693,001,2024-01-30_15h16.17.547,PFE,2023.2.3,59.99026957827578,2024-01-30 15h16.23.220994 +0100,
video/Sphere_init4_speed1/original/0001-0150.avi,video/First_frame/Sphere_init4_speed1_original_0001-0150.jpg,2,0,2,0,0,13,13,11,517.2380853999998,,,,,,517.2032373999996,517.2380853999998,518.2050334,518.2050406000003,518.4883298,524.7049726,,,,,,,,,,,,200693,001,2024-01-30_15h16.17.547,PFE,2023.2.3,59.99026957827578,2024-01-30 15h16.23.220994 +0100,
video/Sphere_init4_speed1/delta2/0001-0150.avi,video/First_frame/Sphere_init4_speed1_delta2_0001-0150.jpg,2,0,2,0,0,14,14,10,524.8547764999998,,,,,,524.8191566,524.8547764999998,525.8217238000002,525.8217321999996,526.0882739000003,532.3048953000002,,,,,,,,,,,,200693,001,2024-01-30_15h16.17.547,PFE,2023.2.3,59.99026957827578,2024-01-30 15h16.23.220994 +0100,
video/Sphere_init3_speed1/delta1/0001-0150.avi,video/First_frame/Sphere_init3_speed1_delta1_0001-0150.jpg,2,0,2,0,0,15,15,6,532.4549270000002,,,,,,532.4312556,532.4549270000002,533.4383258000003,533.4383333999999,533.7049737000002,539.9215732999996,,,,,,,,,,,,200693,001,2024-01-30_15h16.17.547,PFE,2023.2.3,59.99026957827578,2024-01-30 15h16.23.220994 +0100,
video/Sphere_init2_speed1/delta1/0001-0150.avi,video/First_frame/Sphere_init2_speed1_delta1_0001-0150.jpg,2,0,2,0,0,16,16,3,540.0714899,,,,,,540.0423905000002,540.0714899,541.0550225000002,541.0550305000002,541.3216569000001,547.5382729999997,,,,,,,,,,,,200693,001,2024-01-30_15h16.17.547,PFE,2023.2.3,59.99026957827578,2024-01-30 15h16.23.220994 +0100,
video/Sphere_init2_speed1/delta2/0001-0150.avi,video/First_frame/Sphere_init2_speed1_delta2_0001-0150.jpg,2,0,2,0,0,17,17,4,547.6877443999997,,,,,,547.6542182999997,547.6877443999997,548.6547452999998,548.6547534999995,548.9216384999995,555.1552916999995,,,,,,,,,,,,200693,001,2024-01-30_15h16.17.547,PFE,2023.2.3,59.99026957827578,2024-01-30 15h16.23.220994 +0100,
video/Sphere_init3_speed1_perturbation/original/0001-0150.avi,video/First_frame/Sphere_init3_speed1_perturbation_original_0001-0150.jpg,2,0,2,0,0,18,18,20,555.2886555999999,,,,,,555.2662328000001,555.2886555999999,556.2716729999997,556.2716797999997,556.5382862000001,562.7544350000003,,,,,,,,,,,,200693,001,2024-01-30_15h16.17.547,PFE,2023.2.3,59.99026957827578,2024-01-30 15h16.23.220994 +0100,
video/Sphere_init2_speed1_perturbation/original/0001-0150.avi,video/First_frame/Sphere_init2_speed1_perturbation_original_0001-0150.jpg,2,0,2,0,0,19,19,17,562.9043631,,,,,,562.8792311000002,562.9043631,563.8883369999999,563.8883449999998,564.1547458,570.3711843999995,,,,,,,,,,,,200693,001,2024-01-30_15h16.17.547,PFE,2023.2.3,59.99026957827578,2024-01-30 15h16.23.220994 +0100,
video/Sphere_init2_speed1/original/0001-0150.avi,video/First_frame/Sphere_init2_speed1_original_0001-0150.jpg,2,0,2,0,0,20,20,5,570.5215862999999,,,,,,570.4915491999996,570.5215862999999,571.5049377999999,571.5049453999995,571.7716194999998,577.9882725000002,,,,,,,,,,,,200693,001,2024-01-30_15h16.17.547,PFE,2023.2.3,59.99026957827578,2024-01-30 15h16.23.220994 +0100,
video/Sphere_init4_speed1_perturbation/original/0001-0150.avi,video/First_frame/Sphere_init4_speed1_perturbation_original_0001-0150.jpg,2,0,2,0,0,21,21,23,578.1382755,,,,,,578.1055899999997,578.1382755,579.1216597999996,579.1216681999999,579.3882894000003,585.6046619000003,,,,,,,,,,,,200693,001,2024-01-30_15h16.17.547,PFE,2023.2.3,59.99026957827578,2024-01-30 15h16.23.220994 +0100,
video/Sphere_init1_speed1_perturbation/original/0001-0150.avi,video/First_frame/Sphere_init1_speed1_perturbation_original_0001-0150.jpg,2,0,2,0,0,22,22,14,585.7549296000002,,,,,,585.7185673999998,585.7549296000002,586.7214657999998,586.7214732999996,587.0049439999998,593.2215263000003,,,,,,,,,,,,200693,001,2024-01-30_15h16.17.547,PFE,2023.2.3,59.99026957827578,2024-01-30 15h16.23.220994 +0100,
video/Sphere_init2_speed1_perturbation/delta1/0001-0150.avi,video/First_frame/Sphere_init2_speed1_perturbation_delta1_0001-0150.jpg,2,0,2,0,0,23,23,15,593.3715756999995,,,,,,593.337779,593.3715756999995,594.3383077000003,594.3383155999995,594.6049086999997,600.8385124000001,,,,,,,,,,,,200693,001,2024-01-30_15h16.17.547,PFE,2023.2.3,59.99026957827578,2024-01-30 15h16.23.220994 +0100,
,,2,0,2,0,,,,,,,,,,,,,,,,,600.9515016,600.9715818999998,600.9715818999998,602.3222349000002,space,1.3468008999998347,None,,,,,200693,001,2024-01-30_15h16.17.547,PFE,2023.2.3,59.99026957827578,2024-01-30 15h16.23.220994 +0100,
,,,,,,,,,,,,,,,,,,,,,,,,,,,,,602.3224356999995,3.840000044874614e-05,0.09916880000037054,602.4222659000002,,,,,,,,
