videos,first_frame,sessions.thisRepN,sessions.thisTrialN,sessions.thisN,sessions.thisIndex,trials.thisRepN,trials.thisTrialN,trials.thisN,trials.thisIndex,thisRow.t,notes,focus.started,image.started,focus.stopped,trial.started,movie.started,etRecord.started,etRecord.stopped,trial.stopped,questions.started,key_resp.started,text.started,questions.stopped,key_resp.keys,key_resp.rt,key_resp.duration,participant,session,date,expName,psychopyVersion,frameRate,expStart,
video/Sphere_init1_speed1_perturbation/delta2/0001-0150.avi,video/First_frame/Sphere_init1_speed1_perturbation_delta2_0001-0150.jpg,0,0,0,0,0,0,0,13,0.15662379993591458,,0.02425229991786182,0.15662379993591458,1.0018830999033526,1.001897000009194,1.101395000005141,0.049845100031234324,1.0849438000004739,7.31855019996874,,,,,,,,262320,001,2023-11-21_16h25.39.111,PFE,2023.2.3,59.94761777749353,2023-11-21 16h25.43.179322 +0100,
video/Sphere_init3_speed1_perturbation/delta2/0001-0150.avi,video/First_frame/Sphere_init3_speed1_perturbation_delta2_0001-0150.jpg,0,0,0,0,0,1,1,19,7.485312799923122,,7.443650999921374,7.485312799923122,8.451816499931738,8.451825399999507,8.718312799930573,0.22164889995474368,1.258324999944307,14.93531199998688,,,,,,,,262320,001,2023-11-21_16h25.39.111,PFE,2023.2.3,59.94761777749353,2023-11-21 16h25.43.179322 +0100,
video/Sphere_init4_speed1_perturbation/original/0001-0150.avi,video/First_frame/Sphere_init4_speed1_perturbation_original_0001-0150.jpg,0,0,0,0,0,2,2,23,15.084893299965188,,15.059125899919309,15.084893299965188,16.068386400002055,16.068394299945794,16.334984299959615,0.22181440005078912,1.2594462999841198,22.55203109991271,,,,,,,,262320,001,2023-11-21_16h25.39.111,PFE,2023.2.3,59.94761777749353,2023-11-21 16h25.43.179322 +0100,
video/Sphere_init3_speed1_perturbation/original/0001-0150.avi,video/First_frame/Sphere_init3_speed1_perturbation_original_0001-0150.jpg,0,0,0,0,0,3,3,20,22.70165529998485,,22.67565210000612,22.70165529998485,23.684814399923198,23.6848213999765,23.951553499908186,0.22184470004867762,1.2595463000470772,30.168468699906953,,,,,,,,262320,001,2023-11-21_16h25.39.111,PFE,2023.2.3,59.94761777749353,2023-11-21 16h25.43.179322 +0100,
video/Sphere_init4_speed1/delta2/0001-0150.avi,video/First_frame/Sphere_init4_speed1_delta2_0001-0150.jpg,0,0,0,0,0,4,4,10,30.318343399907462,,30.29129669989925,30.318343399907462,31.301808599964716,31.301815799903125,31.56797119998373,0.22071889997459948,1.260865099960938,37.78518040000927,,,,,,,,262320,001,2023-11-21_16h25.39.111,PFE,2023.2.3,59.94761777749353,2023-11-21 16h25.43.179322 +0100,
video/Sphere_init1_speed1_perturbation/original/0001-0150.avi,video/First_frame/Sphere_init1_speed1_perturbation_original_0001-0150.jpg,0,0,0,0,0,5,5,14,37.935012199915946,,37.90678239997942,37.935012199915946,38.91828689991962,38.91829599998891,39.184975099982694,0.2218645999673754,1.2618636999977753,45.40180039999541,,,,,,,,262320,001,2023-11-21_16h25.39.111,PFE,2023.2.3,59.94761777749353,2023-11-21 16h25.43.179322 +0100,
video/Sphere_init2_speed1_perturbation/delta2/0001-0150.avi,video/First_frame/Sphere_init2_speed1_perturbation_delta2_0001-0150.jpg,0,0,0,0,0,6,6,16,45.55192289990373,,45.5222656999249,45.55192289990373,46.535286400001496,46.5352930999361,46.80170700000599,0.22379540000110865,1.2631973999086767,53.01833519991487,,,,,,,,262320,001,2023-11-21_16h25.39.111,PFE,2023.2.3,59.94761777749353,2023-11-21 16h25.43.179322 +0100,
video/Sphere_init4_speed1_perturbation/delta1/0001-0150.avi,video/First_frame/Sphere_init4_speed1_perturbation_delta1_0001-0150.jpg,0,0,0,0,0,7,7,21,53.1683637999231,,53.13960589992348,53.1683637999231,54.15175119997002,54.15175759990234,54.41830499994103,0.2241900999797508,1.2622765999985859,60.6353669000091,,,,,,,,262320,001,2023-11-21_16h25.39.111,PFE,2023.2.3,59.94761777749353,2023-11-21 16h25.43.179322 +0100,
video/Sphere_init2_speed1/delta2/0001-0150.avi,video/First_frame/Sphere_init2_speed1_delta2_0001-0150.jpg,0,0,0,0,0,8,8,4,60.78499899990857,,60.757487799972296,60.78499899990857,61.768665999989025,61.76867289992515,62.03493650001474,0.22276949998922646,1.2609876999631524,68.25192149996292,,,,,,,,262320,001,2023-11-21_16h25.39.111,PFE,2023.2.3,59.94761777749353,2023-11-21 16h25.43.179322 +0100,
video/Sphere_init4_speed1/original/0001-0150.avi,video/First_frame/Sphere_init4_speed1_original_0001-0150.jpg,0,0,0,0,0,9,9,11,68.40170499996748,,68.37403009994887,68.40170499996748,69.38511659996584,69.38512359990273,69.6516386999283,0.22273429995402694,1.2614396000280976,75.86848219996318,,,,,,,,262320,001,2023-11-21_16h25.39.111,PFE,2023.2.3,59.94761777749353,2023-11-21 16h25.43.179322 +0100,
video/Sphere_init1_speed1/original/0001-0150.avi,video/First_frame/Sphere_init1_speed1_original_0001-0150.jpg,0,0,0,0,0,10,10,2,76.01826439995784,,75.99057449994143,76.01826439995784,77.00190399994608,77.00191110000014,77.26832359994296,0.22240249998867512,1.261303999926895,83.48502499994356,,,,,,,,262320,001,2023-11-21_16h25.39.111,PFE,2023.2.3,59.94761777749353,2023-11-21 16h25.43.179322 +0100,
video/Sphere_init1_speed1/delta2/0001-0150.avi,video/First_frame/Sphere_init1_speed1_delta2_0001-0150.jpg,0,0,0,0,0,11,11,1,83.63497989997268,,83.60655369993765,83.63497989997268,84.61825289996341,84.6182594000129,84.88500020001084,0.22076510009355843,1.2619393999921158,91.10209689999465,,,,,,,,262320,001,2023-11-21_16h25.39.111,PFE,2023.2.3,59.94761777749353,2023-11-21 16h25.43.179322 +0100,
video/Sphere_init3_speed1_perturbation/delta1/0001-0150.avi,video/First_frame/Sphere_init3_speed1_perturbation_delta1_0001-0150.jpg,0,0,0,0,0,12,12,18,91.25176559993997,,91.2211501999991,91.25176559993997,92.23515640001278,92.23516329994891,92.50129919999745,0.22070679999887943,1.2636493999743834,98.71860449993983,,,,,,,,262320,001,2023-11-21_16h25.39.111,PFE,2023.2.3,59.94761777749353,2023-11-21 16h25.43.179322 +0100,
video/Sphere_init3_speed1/delta2/0001-0150.avi,video/First_frame/Sphere_init3_speed1_delta2_0001-0150.jpg,0,0,0,0,0,13,13,7,98.86808069993276,,98.83562249992974,98.86808069993276,99.8516868998995,99.85169379995205,100.11833319999278,0.22792309999931604,1.2664910999592394,106.33524299995042,,,,,,,,262320,001,2023-11-21_16h25.39.111,PFE,2023.2.3,59.94761777749353,2023-11-21 16h25.43.179322 +0100,
video/Sphere_init3_speed1/delta1/0001-0150.avi,video/First_frame/Sphere_init3_speed1_delta1_0001-0150.jpg,0,0,0,0,0,14,14,6,106.48497839993797,,106.45714780001435,106.48497839993797,107.46835579990875,107.46836519998033,107.73496159992646,0.22183669998776168,1.2615860999794677,113.951939499937,,,,,,,,262320,001,2023-11-21_16h25.39.111,PFE,2023.2.3,59.94761777749353,2023-11-21 16h25.43.179322 +0100,
video/Sphere_init1_speed1_perturbation/delta1/0001-0150.avi,video/First_frame/Sphere_init1_speed1_perturbation_delta1_0001-0150.jpg,0,0,0,0,0,15,15,12,114.11995299998671,,114.07278329995461,114.11995299998671,115.08491089998279,115.08491949993186,115.35166139993817,0.21988869993947446,1.2624075999483466,121.56874909996986,,,,,,,,262320,001,2023-11-21_16h25.39.111,PFE,2023.2.3,59.94761777749353,2023-11-21 16h25.43.179322 +0100,
video/Sphere_init3_speed1/original/0001-0150.avi,video/First_frame/Sphere_init3_speed1_original_0001-0150.jpg,0,0,0,0,0,16,16,8,121.71828709996771,,121.68639129993971,121.71828709996771,122.7017019999912,122.70170849992428,122.96855439990759,0.2218538000015542,1.2655165999894962,129.185269300011,,,,,,,,262320,001,2023-11-21_16h25.39.111,PFE,2023.2.3,59.94761777749353,2023-11-21 16h25.43.179322 +0100,
video/Sphere_init4_speed1/delta1/0001-0150.avi,video/First_frame/Sphere_init4_speed1_delta1_0001-0150.jpg,0,0,0,0,0,17,17,9,129.3349788999185,,129.30192180001177,129.3349788999185,130.30210009997245,130.30210839991923,130.58520989993121,0.22213969996664673,1.2665548999793828,136.80212509992998,,,,,,,,262320,001,2023-11-21_16h25.39.111,PFE,2023.2.3,59.94761777749353,2023-11-21 16h25.43.179322 +0100,
video/Sphere_init2_speed1/original/0001-0150.avi,video/First_frame/Sphere_init2_speed1_original_0001-0150.jpg,0,0,0,0,0,18,18,5,136.95159630000126,,136.91777770000044,136.95159630000126,137.91833989997394,137.91834709991235,138.20190109999385,0.22178709995932877,1.267430100007914,144.4185603999067,,,,,,,,262320,001,2023-11-21_16h25.39.111,PFE,2023.2.3,59.94761777749353,2023-11-21 16h25.43.179322 +0100,
video/Sphere_init4_speed1_perturbation/delta2/0001-0150.avi,video/First_frame/Sphere_init4_speed1_perturbation_delta2_0001-0150.jpg,0,0,0,0,0,19,19,22,144.56826359999832,,144.53334139997605,144.56826359999832,145.5350563999964,145.53506679995917,145.8184824999189,0.22067020006943494,1.268313700100407,152.03518639993854,,,,,,,,262320,001,2023-11-21_16h25.39.111,PFE,2023.2.3,59.94761777749353,2023-11-21 16h25.43.179322 +0100,
video/Sphere_init1_speed1/delta1/0001-0150.avi,video/First_frame/Sphere_init1_speed1_delta1_0001-0150.jpg,0,0,0,0,0,20,20,0,152.16818339994643,,152.14782519999426,152.16818339994643,153.1518272999674,153.151833999902,153.43497719999868,0.22289109998382628,1.2706498999614269,159.65187659999356,,,,,,,,262320,001,2023-11-21_16h25.39.111,PFE,2023.2.3,59.94761777749353,2023-11-21 16h25.43.179322 +0100,
video/Sphere_init2_speed1/delta1/0001-0150.avi,video/First_frame/Sphere_init2_speed1_delta1_0001-0150.jpg,0,0,0,0,0,21,21,3,159.80161600001156,,159.76536489999853,159.80161600001156,160.76834509999026,160.7683516999241,161.03464119997807,0.22136379999574274,1.2531293999636546,167.26852109993342,,,,,,,,262320,001,2023-11-21_16h25.39.111,PFE,2023.2.3,59.94761777749353,2023-11-21 16h25.43.179322 +0100,
video/Sphere_init2_speed1_perturbation/original/0001-0150.avi,video/First_frame/Sphere_init2_speed1_perturbation_original_0001-0150.jpg,0,0,0,0,0,22,22,17,167.41828889993485,,167.38040119991638,167.41828889993485,168.3850245999638,168.3850311000133,168.65141209994908,0.22177689999807626,1.254806000040844,174.88491249992512,,,,,,,,262320,001,2023-11-21_16h25.39.111,PFE,2023.2.3,59.94761777749353,2023-11-21 16h25.43.179322 +0100,
video/Sphere_init2_speed1_perturbation/delta1/0001-0150.avi,video/First_frame/Sphere_init2_speed1_perturbation_delta1_0001-0150.jpg,0,0,0,0,0,23,23,15,175.01820179994684,,174.99594659998547,175.01820179994684,176.0020125999581,176.00202129990794,176.26820869999938,0.22105050005484372,1.2556602000258863,182.48527449998073,,,,,,,,262320,001,2023-11-21_16h25.39.111,PFE,2023.2.3,59.94761777749353,2023-11-21 16h25.43.179322 +0100,
,,0,0,0,0,,,,,,,,,,,,,,,182.61134989990387,182.65156219992787,182.65156219992787,186.3352122999495,space,3.6792873999802396,None,262320,001,2023-11-21_16h25.39.111,PFE,2023.2.3,59.94761777749353,2023-11-21 16h25.43.179322 +0100,
,,,,,,,,,,186.36829109990504,,186.3380382999312,186.36829109990504,,,,,,,,,,,,,,,,,,,,,
